Folder: rsna-deep-learning-lab-2025/rsna_2025/data

File: radiomic_features_TCGA.csv
Lesion Name,Maximum enhancement (K1),Time to peak (K2),Uptake rate (K3),Washout rate (K4),Curve shape index (K5),E1 (K6),Signal Enhancement Ratio (SER) (K7),Maximum enhancement-variance (E1),Enhancement-Variance Time to Peak (E2),Enhancement-variance Increasing Rate (E3),Enhancement-variance Decreasing Rate (E4),Contrast (T1),Correlation (T2),Difference Entropy (T3),Difference Variance (T4),Energy (T5),Entropy (T6),Homogeneity (T7),IMC1 (T8),IMC2 (T9),Maximum Correlation Coefficient (T10),Sum Average (T11),Sum Entropy (T12),Sum Variance (T13),Variance (T14),Sphericity (G1),Irregularity (G2),Margin Sharpness (M1),Variance of Margin Sharpness (M2),Variance of Radial Gradient Histogram (vRGH) (M3),Size/Lesion volume (S1),Effective Diameter (S2),Surface Area (S3),Surface Area to Volume ratio (G3),Volume of most enhancing voxels (S4),Maximum Diameter (S5)
TCGA-AO-A03M-1.les,1.602573E+00,1.454330E+02,1.101932E-02,8.091526E-04,-9.999849E-02,1.550204E+00,1.111109E+00,1.259630E-01,6.000000E+01,2.099383E-03,1.625588E-04,4.369482E+01,7.016889E-01,2.637418E+00,2.079656E+01,2.148777E-03,6.466035E+00,3.193660E-01,-1.170003E-01,7.431398E-01,7.148036E-01,3.632611E+01,4.085949E+00,2.492531E+02,7.323699E+01,6.160903E-01,6.421635E-01,1.886433E-01,1.428971E-04,1.488068E-02,3.139654E+03,1.816747E+01,2.897704E+03,9.229374E-01,2.215705E+01,2.760382E+01
TCGA-AO-A12D-S2-1.les,2.130274E+00,1.660000E+02,1.283298E-02,5.819060E-04,1.064393E-02,2.044503E+00,9.894682E-01,1.442474E-01,2.760000E+02,5.226356E-04,0.000000E+00,4.015375E+01,7.270527E-01,2.591636E+00,1.892910E+01,1.928793E-03,6.464079E+00,3.171218E-01,-1.205423E-01,7.507254E-01,7.466568E-01,3.549776E+01,4.095300E+00,2.540697E+02,7.355586E+01,8.168794E-01,6.021595E-01,2.062234E-01,1.076979E-04,1.014952E-02,7.029419E+03,2.376696E+01,4.460547E+03,6.345541E-01,6.042480E+01,3.129810E+01
TCGA-AR-A1AQ-S2-1.les,2.118569E+00,6.000000E+01,3.530949E-02,6.290748E-04,-1.152103E-01,2.118569E+00,1.130212E+00,1.671886E-01,4.480000E+02,3.731888E-04,0.000000E+00,5.418766E+01,6.412632E-01,2.740896E+00,2.483532E+01,1.707938E-03,6.587282E+00,2.895775E-01,-8.483088E-02,6.648981E-01,6.462192E-01,3.580022E+01,4.085700E+00,2.479150E+02,7.552565E+01,5.919037E-01,7.495253E-01,1.785253E-01,8.499406E-05,8.654120E-03,6.075110E+03,2.263872E+01,6.428206E+03,1.058122E+00,9.083862E+01,3.773148E+01
TCGA-BH-A0AZ-1.les,1.690371E+00,1.358080E+02,1.244677E-02,1.292142E-03,-8.783020E-02,1.638361E+00,1.096287E+00,2.137817E-01,6.000000E+01,3.563029E-03,3.307521E-04,2.615249E+01,8.218966E-01,2.411667E+00,1.156235E+01,2.274103E-03,6.314600E+00,3.452420E-01,-1.635537E-01,8.217470E-01,8.231714E-01,3.558432E+01,4.103478E+00,2.675250E+02,7.341938E+01,3.791177E-01,6.493533E-01,2.366840E-01,2.554550E-04,7.199888E-03,4.793545E+03,2.091957E+01,3.920899E+03,8.179538E-01,9.817774E+01,3.607820E+01
TCGA-BH-A0BG-1.les,1.552300E+00,1.341990E+02,1.156715E-02,1.150006E-03,3.228138E-02,1.338435E+00,9.687281E-01,3.543450E-01,2.083980E+02,1.700328E-03,3.654890E-05,4.075230E+01,7.260213E-01,2.623340E+00,1.726931E+01,1.877210E-03,6.488568E+00,2.994530E-01,-1.126815E-01,7.343032E-01,7.317399E-01,3.576926E+01,4.093593E+00,2.567329E+02,7.437130E+01,7.124569E-01,6.122916E-01,2.536468E-01,2.416481E-04,7.624286E-03,1.791459E+03,1.506848E+01,1.839855E+03,1.027015E+00,6.350815E+01,2.180504E+01
TCGA-BH-A0C0-1.les,2.092216E+00,6.000000E+01,3.487027E-02,6.256092E-04,-7.865235E-02,2.092216E+00,1.085367E+00,3.342013E-01,6.000000E+01,5.570021E-03,3.281589E-04,2.958843E+01,8.002106E-01,2.463613E+00,1.323214E+01,2.122688E-03,6.371767E+00,3.335324E-01,-1.474196E-01,7.982859E-01,8.017189E-01,3.552422E+01,4.099864E+00,2.666078E+02,7.404905E+01,7.588669E-01,6.188829E-01,2.241632E-01,1.800020E-04,1.049130E-02,2.239264E+03,1.623188E+01,2.171847E+03,9.698933E-01,5.311933E+01,2.554916E+01
TCGA-BH-A0DK-1.les,1.954042E+00,6.000000E+01,3.256737E-02,1.590112E-03,-2.170448E-01,1.954042E+00,1.277212E+00,5.774483E-01,6.000000E+01,9.624139E-03,6.961644E-04,2.250950E+01,8.476308E-01,2.290128E+00,1.166770E+01,2.756013E-03,6.177744E+00,3.907333E-01,-2.036471E-01,8.680879E-01,8.789560E-01,3.546399E+01,4.094466E+00,2.729505E+02,7.386501E+01,7.359979E-01,6.485397E-01,2.340236E-01,3.037323E-04,3.351808E-03,6.819187E+03,2.352762E+01,4.947999E+03,7.255994E-01,8.026724E+01,4.192068E+01
TCGA-BH-A0E0-1.les,1.556724E+00,1.959780E+02,7.943360E-03,4.206755E-04,1.297261E-01,1.352648E+00,8.851703E-01,1.730067E-01,6.000000E+01,2.883445E-03,4.152758E-05,3.163491E+01,7.895034E-01,2.476605E+00,1.541968E+01,2.247290E-03,6.364235E+00,3.480124E-01,-1.519712E-01,8.055502E-01,7.921655E-01,3.479689E+01,4.109518E+00,2.689392E+02,7.514351E+01,6.595925E-01,7.825166E-01,2.094249E-01,2.431054E-04,4.147886E-03,3.241522E+04,3.955944E+01,2.260601E+04,6.973889E-01,7.860338E+02,6.678959E+01
TCGA-BH-A0GY-1.les,1.496717E+00,2.466430E+02,6.068354E-03,7.233122E-04,1.643008E-01,1.227532E+00,8.588846E-01,6.146105E-01,3.399640E+02,1.807870E-03,0.000000E+00,3.660650E+01,7.563900E-01,2.558531E+00,1.694362E+01,2.298559E-03,6.383329E+00,3.272665E-01,-1.421031E-01,7.895327E-01,8.072419E-01,3.625098E+01,4.096119E+00,2.639271E+02,7.513340E+01,5.007291E-01,7.779404E-01,2.278915E-01,2.976438E-04,2.622873E-03,4.838968E+03,2.098544E+01,6.230406E+03,1.287548E+00,4.674905E+01,4.599458E+01
TCGA-BH-A0H7-1.les,1.143421E+00,2.340490E+02,4.885393E-03,0.000000E+00,1.855265E-01,9.644840E-01,8.435071E-01,3.615492E-01,1.180160E+02,3.063561E-03,6.745960E-05,2.265978E+01,8.597868E-01,2.303758E+00,1.164354E+01,2.753906E-03,6.182344E+00,3.910163E-01,-2.101703E-01,8.751456E-01,8.695078E-01,3.392030E+01,4.127762E+00,3.005591E+02,8.080472E+01,7.414410E-01,5.439469E-01,2.179859E-01,2.991112E-04,7.468920E-03,1.343593E+03,1.369062E+01,1.291162E+03,9.609765E-01,5.492461E+01,1.932856E+01
TCGA-BH-A0HY-1.les,1.822864E+00,1.551300E+02,1.175056E-02,1.256510E-03,1.411553E-01,1.387892E+00,8.763049E-01,8.791421E-01,3.453900E+02,2.545361E-03,0.000000E+00,4.478247E+01,7.078056E-01,2.656462E+00,2.015043E+01,1.994080E-03,6.483567E+00,3.027705E-01,-1.138182E-01,7.367012E-01,7.438880E-01,3.627619E+01,4.093053E+00,2.617427E+02,7.663129E+01,4.834783E-01,6.714427E-01,2.402306E-01,2.650270E-04,4.679262E-03,7.895413E+02,1.146724E+01,1.257350E+03,1.592507E+00,4.531280E+01,2.544748E+01
TCGA-BH-A18H-1.les,1.389118E+00,1.813950E+02,7.657974E-03,9.382963E-04,-6.973914E-02,1.247693E+00,1.074967E+00,2.516492E-01,4.248560E+02,5.923164E-04,0.000000E+00,4.981588E+01,6.626500E-01,2.721161E+00,2.120386E+01,1.956251E-03,6.506982E+00,2.903793E-01,-1.019867E-01,7.092668E-01,7.173477E-01,3.679070E+01,4.078156E+00,2.455206E+02,7.383411E+01,6.660929E-01,5.303459E-01,1.944247E-01,7.065813E-04,1.675267E-02,7.093193E+02,1.106491E+01,8.189685E+02,1.154584E+00,7.569328E+01,1.747040E+01
TCGA-E2-A108-1.les,1.554020E+00,6.000000E+01,2.590034E-02,6.470827E-04,-1.198128E-01,1.554020E+00,1.136122E+00,1.315913E-01,3.477400E+02,3.784187E-04,0.000000E+00,4.094762E+01,7.210954E-01,2.595014E+00,2.007012E+01,2.316657E-03,6.381363E+00,3.287275E-01,-1.268967E-01,7.607852E-01,7.379789E-01,3.608635E+01,4.090549E+00,2.526841E+02,7.340792E+01,6.750351E-01,7.172136E-01,1.747124E-01,1.339928E-03,7.811309E-03,4.895000E+03,2.106613E+01,4.930156E+03,1.007182E+00,1.460938E+01,3.495555E+01
TCGA-E2-A14T-2.les,3.619037E+00,6.000000E+01,6.031728E-02,4.505817E-04,-4.490258E-02,3.619037E+00,1.047014E+00,2.623929E+00,4.206540E+02,6.237738E-03,0.000000E+00,4.136857E+01,7.164047E-01,2.633868E+00,1.669405E+01,1.845758E-03,6.478943E+00,2.888052E-01,-1.107293E-01,7.294374E-01,7.249013E-01,3.664718E+01,4.075643E+00,2.503751E+02,7.293592E+01,7.701149E-01,4.539290E-01,2.988573E-01,2.606505E-04,1.239684E-02,4.672852E+02,9.627816E+00,5.332812E+02,1.141233E+00,1.262207E+02,1.278794E+01
TCGA-E2-A15A-1.les,2.290835E+00,6.000000E+01,3.818058E-02,1.617715E-03,-2.002496E-01,2.290835E+00,1.250390E+00,2.944942E-01,6.000000E+01,4.908236E-03,1.106175E-04,4.235866E+01,7.132258E-01,2.616300E+00,2.014655E+01,1.922757E-03,6.484118E+00,3.171243E-01,-1.147908E-01,7.389121E-01,7.222181E-01,3.548279E+01,4.094855E+00,2.530561E+02,7.385369E+01,5.803893E-01,7.507810E-01,2.007492E-01,2.571172E-04,4.712666E-03,1.055996E+04,2.721998E+01,9.339948E+03,8.844681E-01,9.244995E+01,5.305080E+01
TCGA-E2-A15J-1.les,1.517968E+00,6.000000E+01,2.529947E-02,1.099756E-03,-2.031809E-01,1.517968E+00,1.254990E+00,1.404337E-01,6.000000E+01,2.340562E-03,1.056699E-04,4.700576E+01,6.801145E-01,2.671682E+00,2.203949E+01,2.072000E-03,6.460983E+00,3.073669E-01,-1.047240E-01,7.143682E-01,6.926144E-01,3.629661E+01,4.082605E+00,2.468854E+02,7.347278E+01,7.970075E-01,5.134016E-01,2.070351E-01,1.918075E-03,1.501752E-02,2.692261E+03,1.725995E+01,1.923350E+03,7.143995E-01,6.713867E+01,2.253090E+01
TCGA-E2-A1B5-1.les,1.495674E+00,6.000000E+01,2.492790E-02,9.262991E-05,-1.754066E-02,1.495674E+00,1.017854E+00,1.230407E-01,6.000000E+01,2.050678E-03,8.181836E-05,5.026608E+01,6.621907E-01,2.720378E+00,2.157651E+01,1.722414E-03,6.559417E+00,2.838508E-01,-8.838140E-02,6.743607E-01,6.736659E-01,3.608366E+01,4.081166E+00,2.473343E+02,7.440009E+01,6.286232E-01,6.234370E-01,2.182222E-01,7.602850E-04,1.030202E-02,1.419082E+03,1.394236E+01,1.621753E+03,1.142819E+00,8.869263E+01,2.250068E+01
TCGA-E2-A1IJ-1.les,1.698300E+00,2.017860E+02,8.416343E-03,7.867884E-04,-3.282982E-02,1.640605E+00,1.033944E+00,1.520555E-01,3.435720E+02,4.425724E-04,0.000000E+00,5.036069E+01,6.578358E-01,2.722411E+00,2.206779E+01,1.949578E-03,6.516085E+00,2.923509E-01,-9.472718E-02,6.905630E-01,6.731333E-01,3.687046E+01,4.076989E+00,2.440050E+02,7.359142E+01,5.444984E-01,6.987559E-01,1.894731E-01,1.184738E-03,1.219396E-02,1.344331E+03,1.369312E+01,1.955404E+03,1.454555E+00,2.719116E+01,2.585512E+01
TCGA-E2-A1LG-S2-1.les,1.919166E+00,2.046230E+02,9.379032E-03,7.973688E-04,-4.785544E-03,1.812522E+00,1.004809E+00,2.274165E-01,3.492460E+02,6.511643E-04,0.000000E+00,4.600198E+01,6.907759E-01,2.647937E+00,2.249929E+01,2.131943E-03,6.456589E+00,3.177803E-01,-1.102394E-01,7.274516E-01,6.973582E-01,3.628760E+01,4.088383E+00,2.515296E+02,7.438290E+01,7.238179E-01,7.542496E-01,2.005406E-01,1.435985E-03,8.298322E-03,1.103047E+04,2.761839E+01,9.751076E+03,8.840129E-01,8.773682E+01,4.071778E+01